cue,direction,practice_block_loop.thisRepN,practice_block_loop.thisTrialN,practice_block_loop.thisN,practice_block_loop.thisIndex,main_blocks_loop.thisRepN,main_blocks_loop.thisTrialN,main_blocks_loop.thisN,main_blocks_loop.thisIndex,instruction_keyboard_response.started,static_isi.started,fixation_pre.started,fixation_pre.stopped,image.started,image.stopped,fixation_post.started,fixation_post.stopped,dots_background.started,dots_stimulus.started,dots_keyboard_response.started,dots_keyboard_response.keys,dots_keyboard_response.rt,feedback_text.started,feedback_text.stopped,instruction_main_text.started,instruction_main_keyboard_response.started,instruction_main_keyboard_response.keys,instruction_main_keyboard_response.rt,dots_background.stopped,dots_stimulus.stopped,dots_keyboard_response.stopped,debriefing_keyboard_response.started,Pseudonym,date,expName,psychopyVersion,frameRate,
left,left,0,0,0,0,,,,,19.073914583999795,0.019812833000287355,30.833922750000056,31.652021584000067,31.652021584000067,32.135494083999674,32.62098974999981,33.845798958999694,33.845798958999694,33.845798958999694,33.845798958999694,f,0.5666997489997811,34.43135904199971,,,,,,,,,,YHH4638574,2023-03-12_21h57.22.756,rdk-discrimination,2023.1.0,None,
right,left,0,1,1,3,,,,,,0.0020010830003229785,35.42280204200006,35.52513466699975,35.52513466699975,36.018406499999855,36.51091079199978,37.704704499999934,37.704704499999934,37.704704499999934,37.704704499999934,f,0.6839618330000121,38.40366249999988,38.89324733400008,,,,,,,,,YHH4638574,2023-03-12_21h57.22.756,rdk-discrimination,2023.1.0,None,
none,right,0,2,2,5,,,,,,-0.006471041000168043,39.39720162499998,39.740787875000024,39.740787875000024,40.23564916699979,40.72947841699988,41.92777587499995,41.92777587499995,41.92777587499995,41.92777587499995,f,0.605732167000042,42.54614050000009,,,,,,,,,,YHH4638574,2023-03-12_21h57.22.756,rdk-discrimination,2023.1.0,None,
none,left,0,3,3,4,,,,,,0.0041608750002524175,43.54495604199974,44.34412741699998,44.34412741699998,44.84283174999973,45.332356208999954,46.33239466699979,46.33239466699979,46.33239466699979,46.33239466699979,f,0.6189639579997674,46.96507274999976,47.4560511249997,,,,,,,,,YHH4638574,2023-03-12_21h57.22.756,rdk-discrimination,2023.1.0,None,
right,right,0,4,4,1,,,,,,-0.004435583000031329,47.95725258399989,48.75874704199987,48.75874704199987,49.25307366700008,49.73814349999975,50.73176749999993,50.73176749999993,50.73176749999993,50.73176749999993,j,0.9314336239999648,51.676702333999856,52.16869608399975,,,,,,,,,YHH4638574,2023-03-12_21h57.22.756,rdk-discrimination,2023.1.0,None,
left,right,0,5,5,2,,,,,,-0.005534625000109372,52.667848499999764,53.463446291999844,53.463446291999844,53.95606662499995,54.447373583999706,55.443825709000066,55.443825709000066,55.443825709000066,55.443825709000066,j,0.6723029159998077,56.126813791999666,56.61862991699991,,,,,,,,,YHH4638574,2023-03-12_21h57.22.756,rdk-discrimination,2023.1.0,None,
,,,,,,,,,,,,,,,,,,,,,,,,,56.61862991699991,56.61862991699991,space,2.0123641240002144,,,,,YHH4638574,2023-03-12_21h57.22.756,rdk-discrimination,2023.1.0,None,
none,right,,,,,0,0,0,69,,0.009598416999779147,59.150671833999695,59.4967677919999,59.4967677919999,59.996510833999764,60.491841874999864,61.48497962500005,61.48497962500005,61.48497962500005,61.48497962500005,j,0.6846133740000369,62.18521616699991,62.680856292000044,,,,,,,,,YHH4638574,2023-03-12_21h57.22.756,rdk-discrimination,2023.1.0,None,
right,left,,,,,0,1,1,39,,-0.006935249999969528,63.17498350000005,63.97574541699987,63.97574541699987,64.47120341699974,64.95523275000005,65.95492220899996,65.95492220899996,65.95492220899996,65.95492220899996,f,1.1406212500000947,67.1108893339997,67.60168754200004,,,,,,,,,YHH4638574,2023-03-12_21h57.22.756,rdk-discrimination,2023.1.0,None,
none,right,,,,,0,2,2,74,,-0.006969459000174538,68.1062714589998,68.4551718749999,68.4551718749999,68.954495167,69.43910487499988,70.63563570899987,70.63563570899987,70.63563570899987,70.63563570899987,j,1.8308482500001446,72.47649912499992,72.96882158399967,,,,,,,,,YHH4638574,2023-03-12_21h57.22.756,rdk-discrimination,2023.1.0,None,
right,right,,,,,0,3,3,17,,-0.008651042000110465,73.4665622499997,73.55942233399992,73.55942233399992,74.06116158399982,74.54420870900003,75.53558437499987,75.53558437499987,75.53558437499987,75.53558437499987,None,,80.53102004199991,81.02728391699975,,,,,78.03405008399977,78.03405008399977,78.03405008399977,,YHH4638574,2023-03-12_21h57.22.756,rdk-discrimination,2023.1.0,None,
left,left,,,,,0,4,4,2,,-0.004915667000204849,81.52950462499984,81.62875054200003,81.62875054200003,82.12797183399971,82.61612454199985,83.8201735839998,83.8201735839998,83.8201735839998,83.8201735839998,f,2.2821419990000322,86.11551537500009,86.60569366699974,,,,,,,,,YHH4638574,2023-03-12_21h57.22.756,rdk-discrimination,2023.1.0,None,
right,right,,,,,0,5,5,21,,-0.005245582999577891,87.10664874999975,87.20162170899994,87.20162170899994,87.70691629199973,88.18860637499984,89.18824362499981,89.18824362499981,89.18824362499981,89.18824362499981,f,2.234784457999922,91.43845462499985,,,,,,,,,,YHH4638574,2023-03-12_21h57.22.756,rdk-discrimination,2023.1.0,None,
none,left,,,,,0,6,6,59,,0.004083082999841281,92.43755587499982,92.5300104590001,92.5300104590001,93.0277074999999,93.51376004199983,94.70995487499977,94.70995487499977,94.70995487499977,94.70995487499977,f,1.148574333000397,95.87305583399984,,,,,,,,,,YHH4638574,2023-03-12_21h57.22.756,rdk-discrimination,2023.1.0,None,
none,left,,,,,0,7,7,51,,0.0034479999999348365,96.8731564589998,97.22011183399991,97.22011183399991,97.7179287089998,98.20312879199992,99.39514195899983,99.39514195899983,99.39514195899983,99.39514195899983,f,1.8158027919998858,101.2176154169997,101.71351816700007,,,,,,,,,YHH4638574,2023-03-12_21h57.22.756,rdk-discrimination,2023.1.0,None,
none,right,,,,,0,8,8,78,,-0.010473792000084359,102.20867920899991,102.30308874999992,102.30308874999992,102.83385495899984,103.29176091699992,104.28653316700002,104.28653316700002,104.28653316700002,104.28653316700002,f,0.2622278329999972,104.56423829200003,,,,,,,,,,YHH4638574,2023-03-12_21h57.22.756,rdk-discrimination,2023.1.0,None,
right,right,,,,,0,9,9,18,,0.003056792000279529,105.5601804590001,105.66199099999994,105.66199099999994,106.17097591699985,106.64850924999973,107.83961220899982,107.83961220899982,107.83961220899982,107.83961220899982,f,0.7419412499998543,108.59579462500005,109.09216633400001,,,,,,,,,YHH4638574,2023-03-12_21h57.22.756,rdk-discrimination,2023.1.0,None,
right,right,,,,,0,10,10,20,,-0.009077542000341055,109.58768312499978,110.38548583400006,110.38548583400006,110.88687695899989,111.36682862499993,112.56707070899984,112.56707070899984,112.56707070899984,112.56707070899984,f,0.7670784580000145,113.34764804199995,113.84123254199994,,,,,,,,,YHH4638574,2023-03-12_21h57.22.756,rdk-discrimination,2023.1.0,None,
left,right,,,,,0,11,11,33,,-0.007517041000028257,114.33726475000003,114.68162179199999,114.68162179199999,115.1731199589999,115.66503862499985,116.85716237499992,116.85716237499992,116.85716237499992,116.85716237499992,f,0.4267440409998926,117.29864541699999,117.78858841700003,,,,,,,,,YHH4638574,2023-03-12_21h57.22.756,rdk-discrimination,2023.1.0,None,
none,left,,,,,0,12,12,48,,-0.007818250000127591,118.29226074999997,118.38300141699983,118.38300141699983,118.88724554200007,119.36968716699994,120.5644901669998,120.5644901669998,120.5644901669998,120.5644901669998,f,1.0632107080000424,121.64276729199992,,,,,,,,,,YHH4638574,2023-03-12_21h57.22.756,rdk-discrimination,2023.1.0,None,
none,left,,,,,0,13,13,44,,0.002842792000137706,122.64169041700006,123.43738837499995,123.43738837499995,123.93616458399993,124.41975545900004,125.41922545899979,125.41922545899979,125.41922545899979,125.41922545899979,f,0.8165565409999544,126.2516955000001,126.74379745899978,,,,,,,,,YHH4638574,2023-03-12_21h57.22.756,rdk-discrimination,2023.1.0,None,
left,left,,,,,0,14,14,13,,-0.005280832999687846,127.24510233399997,128.0416097919997,128.0416097919997,128.53608362499972,129.02732608399992,130.2235290839999,130.2235290839999,130.2235290839999,130.2235290839999,f,0.5035576239997681,130.7413739589997,,,,,,,,,,YHH4638574,2023-03-12_21h57.22.756,rdk-discrimination,2023.1.0,None,
none,right,,,,,0,15,15,64,,0.0016198749999603024,131.74156641699983,132.08611699999983,132.08611699999983,132.585244375,133.0706977089999,134.06962774999965,134.06962774999965,134.06962774999965,134.06962774999965,f,0.9966907919997539,135.07958979199975,135.56795054199983,,,,,,,,,YHH4638574,2023-03-12_21h57.22.756,rdk-discrimination,2023.1.0,None,
right,left,,,,,0,16,16,38,,-0.005820458000016515,136.06863112499968,136.42154441699995,136.42154441699995,136.91630704199997,137.40370412499988,138.5992152089998,138.5992152089998,138.5992152089998,138.5992152089998,f,0.7624303330003386,139.37547949999998,139.86433020899995,,,,,,,,,YHH4638574,2023-03-12_21h57.22.756,rdk-discrimination,2023.1.0,None,
none,right,,,,,0,17,17,61,,-0.006154291000257217,140.36466491700003,140.45921287500005,140.45921287500005,140.96227362499985,141.44570304199988,142.64466783399985,142.64466783399985,142.64466783399985,142.64466783399985,f,0.9373824160002187,143.59706424999968,144.09567612499995,,,,,,,,,YHH4638574,2023-03-12_21h57.22.756,rdk-discrimination,2023.1.0,None,
none,left,,,,,0,18,18,47,,-0.00016162500014615944,144.59190766699976,144.691970417,144.691970417,145.19274241699986,145.68134833399972,146.6727975839999,146.6727975839999,146.6727975839999,146.6727975839999,f,1.1622292919996653,147.85385741699974,148.34957429199994,,,,,,,,,YHH4638574,2023-03-12_21h57.22.756,rdk-discrimination,2023.1.0,None,
right,right,,,,,0,19,19,23,,-0.0026026249997812556,148.84724170899972,148.94363108399966,148.94363108399966,149.43885354199983,149.92870920899986,150.92396000000008,150.92396000000008,150.92396000000008,150.92396000000008,f,0.9585914580002282,151.88960808399997,152.38050570899986,,,,,,,,,YHH4638574,2023-03-12_21h57.22.756,rdk-discrimination,2023.1.0,None,
right,right,,,,,0,20,20,24,,-0.009308834000421484,152.8855639999997,152.98382612499972,152.98382612499972,153.483145959,153.96952970899974,154.96822337499998,154.96822337499998,154.96822337499998,154.96822337499998,j,1.2280229169996346,156.20830791699973,,,,,,,,,,YHH4638574,2023-03-12_21h57.22.756,rdk-discrimination,2023.1.0,None,
none,left,,,,,0,21,21,52,,0.0031197500002235756,157.2074215839998,157.30757345899974,157.30757345899974,157.81199012499974,158.29039587499983,159.28263233400003,159.28263233400003,159.28263233400003,159.28263233400003,f,0.8232594579999386,160.12213012499979,160.61735091699984,,,,,,,,,YHH4638574,2023-03-12_21h57.22.756,rdk-discrimination,2023.1.0,None,
right,right,,,,,0,22,22,16,,-0.008852292000028683,161.1134456249997,161.46010195899999,161.46010195899999,161.95976324999992,162.44429549999995,163.440893125,163.440893125,163.440893125,163.440893125,f,0.6664681239999481,164.12076458399997,164.614448584,,,,,,,,,YHH4638574,2023-03-12_21h57.22.756,rdk-discrimination,2023.1.0,None,
none,left,,,,,0,23,23,43,,0.00019387500015000114,165.11518716699993,165.9131399590001,165.9131399590001,166.41573599999992,166.8971407089998,167.89792316700004,167.89792316700004,167.89792316700004,167.89792316700004,f,0.8864904580000257,168.7968083339997,,,,,,,,,,YHH4638574,2023-03-12_21h57.22.756,rdk-discrimination,2023.1.0,None,
right,right,,,,,0,24,24,28,,0.0010016669998549332,169.79235633400003,170.5924325000001,170.5924325000001,171.0862985419999,171.5810914169997,172.57299891699995,172.57299891699995,172.57299891699995,172.57299891699995,f,0.6353059159996519,173.22163608399978,173.71076437500005,,,,,,,,,YHH4638574,2023-03-12_21h57.22.756,rdk-discrimination,2023.1.0,None,
none,left,,,,,0,25,25,49,,-0.006044166999799927,174.21505649999972,174.309942375,174.309942375,174.81467799999973,175.29585629199983,176.4940406249998,176.4940406249998,176.4940406249998,176.4940406249998,f,1.6856207079999876,178.19552104199965,,,,,,,,,,YHH4638574,2023-03-12_21h57.22.756,rdk-discrimination,2023.1.0,None,
left,left,,,,,0,26,26,10,,0.0029568330000984133,179.19355766699982,179.5463642499999,179.5463642499999,180.04426387500007,180.52570079199995,181.5240322919999,181.5240322919999,181.5240322919999,181.5240322919999,f,0.42142012499971315,181.95544654199966,182.44862912500002,,,,,,,,,YHH4638574,2023-03-12_21h57.22.756,rdk-discrimination,2023.1.0,None,
none,right,,,,,0,27,27,71,,-0.008050541000102385,182.9467303749998,183.04115408400003,183.04115408400003,183.54216633399983,184.033839875,185.0250659999997,185.0250659999997,185.0250659999997,185.0250659999997,f,1.0303599160001795,186.0724997919997,186.56888287499987,,,,,,,,,YHH4638574,2023-03-12_21h57.22.756,rdk-discrimination,2023.1.0,None,
none,right,,,,,0,28,28,60,,-0.002368500000102358,187.06432779199986,187.4077757089999,187.4077757089999,187.90636854199965,188.38993816699985,189.58252033400004,189.58252033400004,189.58252033400004,189.58252033400004,f,0.9961287490000359,190.58942429199988,191.08555216700006,,,,,,,,,YHH4638574,2023-03-12_21h57.22.756,rdk-discrimination,2023.1.0,None,
right,right,,,,,0,29,29,25,,-0.007818499999757478,191.57944283400002,191.9227760839999,191.9227760839999,192.42576683399966,192.91120541700002,193.90711233399998,193.90711233399998,193.90711233399998,193.90711233399998,j,0.35630858300010004,194.27456891699967,,,,,,,,,,YHH4638574,2023-03-12_21h57.22.756,rdk-discrimination,2023.1.0,None,
left,left,,,,,0,30,30,14,,0.004780208000283892,195.27512591699997,196.07141654199995,196.07141654199995,196.5701933749997,197.05696770899976,198.25302974999977,198.25302974999977,198.25302974999977,198.25302974999977,f,0.23898624899993592,198.50340129200004,199.00321366699973,,,,,,,,,YHH4638574,2023-03-12_21h57.22.756,rdk-discrimination,2023.1.0,None,
none,right,,,,,0,31,31,77,,-0.002478291999977955,199.49901895899984,199.84663008400003,199.84663008400003,200.34823054199978,200.83865116700008,201.83872908400008,201.83872908400008,201.83872908400008,201.83872908400008,j,0.4231404580000344,202.2781884169999,202.76910716699967,,,,,,,,,YHH4638574,2023-03-12_21h57.22.756,rdk-discrimination,2023.1.0,None,
right,right,,,,,0,32,32,22,,-0.005574583999987226,203.269944959,203.36402429200007,203.36402429200007,203.86907283399978,204.34857658400006,205.33964816699972,205.33964816699972,205.33964816699972,205.33964816699972,j,0.18563766599982046,205.54073245900008,206.03426141699993,,,,,,,,,YHH4638574,2023-03-12_21h57.22.756,rdk-discrimination,2023.1.0,None,
left,left,,,,,0,33,33,6,,-0.008521792000010464,206.53081233400007,206.62514929200006,206.62514929200006,207.12335758399968,207.61836937499993,208.8156967089999,208.8156967089999,208.8156967089999,208.8156967089999,f,0.6722134579999874,209.49960874999988,209.989187959,,,,,,,,,YHH4638574,2023-03-12_21h57.22.756,rdk-discrimination,2023.1.0,None,
none,right,,,,,0,34,34,73,,-0.005896874999962165,210.4899472090001,210.8369277500001,210.8369277500001,211.33536624999988,211.82183674999987,213.02214995899976,213.02214995899976,213.02214995899976,213.02214995899976,f,1.1643495829998756,214.20422941700008,214.69402541699992,,,,,,,,,YHH4638574,2023-03-12_21h57.22.756,rdk-discrimination,2023.1.0,None,
none,left,,,,,0,35,35,50,,-0.005599790999895049,215.19355479199976,215.2888279169997,215.2888279169997,215.78827062499977,216.27699470900006,217.27584833399987,217.27584833399987,217.27584833399987,217.27584833399987,f,1.306393708000087,218.60113604199978,,,,,,,,,,YHH4638574,2023-03-12_21h57.22.756,rdk-discrimination,2023.1.0,None,
none,right,,,,,0,36,36,75,,0.0033621669999774895,219.5989764169999,220.4016228749997,220.4016228749997,220.89592245899985,221.38328383399994,222.5793250419997,222.5793250419997,222.5793250419997,222.5793250419997,f,1.1544683749998512,223.74792350000007,,,,,,,,,,YHH4638574,2023-03-12_21h57.22.756,rdk-discrimination,2023.1.0,None,
none,left,,,,,0,37,37,42,,0.0019861250002577435,224.74377474999983,224.83886291699991,224.83886291699991,225.34558504200004,225.83039537500008,226.82469870899968,226.82469870899968,226.82469870899968,226.82469870899968,f,1.4021404999998595,228.24139745899993,228.7317096249999,,,,,,,,,YHH4638574,2023-03-12_21h57.22.756,rdk-discrimination,2023.1.0,None,
none,right,,,,,0,38,38,76,,-0.007199209000191331,229.23051237499976,229.57486483399998,229.57486483399998,230.0747229169997,230.56458966699984,231.55903620899971,231.55903620899971,231.55903620899971,231.55903620899971,f,1.5313639169999078,233.10460154199973,233.5986667090001,,,,,,,,,YHH4638574,2023-03-12_21h57.22.756,rdk-discrimination,2023.1.0,None,
none,right,,,,,0,39,39,72,,-0.001596790999883524,234.09651970899995,234.19024579200004,234.19024579200004,234.6958992089999,235.1880125419998,236.18202833399982,236.18202833399982,236.18202833399982,236.18202833399982,j,0.8975437080002848,237.09074166699975,,,,,,,,,,YHH4638574,2023-03-12_21h57.22.756,rdk-discrimination,2023.1.0,None,
none,left,,,,,0,40,40,45,,0.002586750000318716,238.08970675,238.1901738749998,238.1901738749998,238.6886183749998,239.18307233399992,240.37882624999975,240.37882624999975,240.37882624999975,240.37882624999975,j,1.0955412080002134,241.48954283400008,241.97790808399986,,,,,,,,,YHH4638574,2023-03-12_21h57.22.756,rdk-discrimination,2023.1.0,None,
left,left,,,,,0,41,41,3,,-0.005674250000083703,242.47890066699983,243.28616824999972,243.28616824999972,243.7796423750001,244.27040533399986,245.47302720900007,245.47302720900007,245.47302720900007,245.47302720900007,f,0.9974995830002626,246.48816229199974,246.98504383399995,,,,,,,,,YHH4638574,2023-03-12_21h57.22.756,rdk-discrimination,2023.1.0,None,
right,right,,,,,0,42,42,27,,0.0004299580000406422,247.48376137500009,247.57925099999966,247.57925099999966,248.079966667,248.56387049999967,249.76087091699992,249.76087091699992,249.76087091699992,249.76087091699992,j,0.6968928750002306,250.46946045899995,250.96069116699982,,,,,,,,,YHH4638574,2023-03-12_21h57.22.756,rdk-discrimination,2023.1.0,None,
right,right,,,,,0,43,43,19,,-0.006181207999816252,251.46532966699988,251.56097279200003,251.56097279200003,252.060657,252.54703900000004,253.73785116699992,253.73785116699992,253.73785116699992,253.73785116699992,j,0.8972042499999588,254.6442206249999,255.138411292,,,,,,,,,YHH4638574,2023-03-12_21h57.22.756,rdk-discrimination,2023.1.0,None,
right,left,,,,,0,44,44,37,,-0.007399916999929701,255.63385749999998,255.98307266699976,255.98307266699976,256.47625145899974,256.9689572499997,257.9623261249999,257.9623261249999,257.9623261249999,257.9623261249999,f,0.9581794579999041,258.93539599999986,259.4271625839997,,,,,,,,,YHH4638574,2023-03-12_21h57.22.756,rdk-discrimination,2023.1.0,None,
none,right,,,,,0,45,45,66,,-0.005253208000340237,259.92665725000006,260.02176704199974,260.02176704199974,260.5257220839999,261.00525683399974,262.199171834,262.199171834,262.199171834,262.199171834,j,1.1212524170000506,263.3358284589999,263.8294411669999,,,,,,,,,YHH4638574,2023-03-12_21h57.22.756,rdk-discrimination,2023.1.0,None,
left,right,,,,,0,46,46,32,,-0.008571500000016385,264.3256388340001,265.12517341700004,265.12517341700004,265.61892991700006,266.105816667,267.10549324999965,267.10549324999965,267.10549324999965,267.10549324999965,j,0.9186076249998223,268.04006608400005,268.5372109589998,,,,,,,,,YHH4638574,2023-03-12_21h57.22.756,rdk-discrimination,2023.1.0,None,
left,left,,,,,0,47,47,1,,-0.002266708000206563,269.0341237089997,269.38108433399975,269.38108433399975,269.8803795419999,270.3624030000001,271.3525287499997,271.3525287499997,271.3525287499997,271.3525287499997,j,1.0146058330001324,272.3798160419997,272.8683649169998,,,,,,,,,YHH4638574,2023-03-12_21h57.22.756,rdk-discrimination,2023.1.0,None,
right,right,,,,,0,48,48,30,,-0.006054333000065526,273.37310620900007,274.173137667,274.173137667,274.67227966699966,275.16376274999993,276.1551146669999,276.1551146669999,276.1551146669999,276.1551146669999,j,0.951275583000097,277.1219648749998,277.61844699999983,,,,,,,,,YHH4638574,2023-03-12_21h57.22.756,rdk-discrimination,2023.1.0,None,
left,left,,,,,0,49,49,9,,-0.0001674169998295838,278.11712204199966,278.21000649999996,278.21000649999996,278.71371366699987,279.1936099169998,280.3890047089999,280.3890047089999,280.3890047089999,280.3890047089999,j,0.9116975420001836,281.31382216699967,281.8122063339997,,,,,,,,,YHH4638574,2023-03-12_21h57.22.756,rdk-discrimination,2023.1.0,None,
right,left,,,,,0,50,50,36,,0.0011357919997863064,282.3107300839997,282.40752679199977,282.40752679199977,282.9066537919998,283.39292058399997,284.3861870420001,284.3861870420001,284.3861870420001,284.3861870420001,j,1.0513762079999651,285.452985375,285.9480524589999,,,,,,,,,YHH4638574,2023-03-12_21h57.22.756,rdk-discrimination,2023.1.0,None,
none,left,,,,,0,51,51,40,,-0.0075528340003074845,286.44243441699973,287.24014070899966,287.24014070899966,287.73798829199995,288.21910412499983,289.21457166699975,289.21457166699975,289.21457166699975,289.21457166699975,j,1.2603739999999561,290.48705900000004,290.976688792,,,,,,,,,YHH4638574,2023-03-12_21h57.22.756,rdk-discrimination,2023.1.0,None,
none,left,,,,,0,52,52,56,,-0.006605416999718727,291.48021312499986,291.8241332499997,291.8241332499997,292.3198269999998,292.8051420839997,294.00350045899995,294.00350045899995,294.00350045899995,294.00350045899995,j,1.9189255830001457,295.93620029199974,,,,,,,,,,YHH4638574,2023-03-12_21h57.22.756,rdk-discrimination,2023.1.0,None,
right,right,,,,,0,53,53,26,,0.000917041999855428,296.93572295900003,297.73295933400004,297.73295933400004,298.22802054199974,298.7172935419999,299.71189270900004,299.71189270900004,299.71189270900004,299.71189270900004,f,1.9234145410000565,301.6513889170001,302.1442005419999,,,,,,,,,YHH4638574,2023-03-12_21h57.22.756,rdk-discrimination,2023.1.0,None,
left,left,,,,,0,54,54,5,,-0.006733917000019574,302.64293037499965,302.99403670899983,302.99403670899983,303.49169783399975,303.9730186669999,305.17049849999967,305.17049849999967,305.17049849999967,305.17049849999967,f,0.7539607490002709,305.93963212499966,306.43817258399986,,,,,,,,,YHH4638574,2023-03-12_21h57.22.756,rdk-discrimination,2023.1.0,None,
none,right,,,,,0,55,55,62,,0.00036920899992765044,306.93552279200003,307.73041920900005,307.73041920900005,308.228633834,308.7207309999999,309.91671262499995,309.91671262499995,309.91671262499995,309.91671262499995,j,0.8515261659999851,310.7812986250001,311.2731994999999,,,,,,,,,YHH4638574,2023-03-12_21h57.22.756,rdk-discrimination,2023.1.0,None,
none,right,,,,,0,56,56,65,,-0.0049508329998388945,311.77526454200006,312.570585167,312.570585167,313.068767834,313.55394149999984,314.5451455419998,314.5451455419998,314.5451455419998,314.5451455419998,j,1.1576226239999414,315.72097799999983,316.21976025000004,,,,,,,,,YHH4638574,2023-03-12_21h57.22.756,rdk-discrimination,2023.1.0,None,
right,right,,,,,0,57,57,31,,-0.003112709000106406,316.71771583400005,316.8129518339997,316.8129518339997,317.3140564999999,317.79597941699967,318.78923074999966,318.78923074999966,318.78923074999966,318.78923074999966,j,1.561919708000005,320.36150687500003,320.8617277919998,,,,,,,,,YHH4638574,2023-03-12_21h57.22.756,rdk-discrimination,2023.1.0,None,
left,right,,,,,0,58,58,34,,0.0008930829999371781,321.36283112499996,322.157814875,322.157814875,322.65816237499985,323.15099845899977,324.350044542,324.350044542,324.350044542,324.350044542,j,1.2977675409997573,325.660762084,326.1563206249998,,,,,,,,,YHH4638574,2023-03-12_21h57.22.756,rdk-discrimination,2023.1.0,None,
none,left,,,,,0,59,59,41,,-0.0028028749998156854,326.657528792,326.75421337499984,326.75421337499984,327.25366458400003,327.73565495899993,328.9282914999999,328.9282914999999,328.9282914999999,328.9282914999999,j,1.5090497080000205,330.4469961249997,330.9394509169997,,,,,,,,,YHH4638574,2023-03-12_21h57.22.756,rdk-discrimination,2023.1.0,None,
left,left,,,,,0,60,60,4,,-0.00543379200007621,331.4410550839998,331.7835514999997,331.7835514999997,332.28569500000003,332.77283254199983,333.7665824589999,333.7665824589999,333.7665824589999,333.7665824589999,j,2.2874399989996164,336.0632513339997,336.5591380420001,,,,,,,,,YHH4638574,2023-03-12_21h57.22.756,rdk-discrimination,2023.1.0,None,
left,left,,,,,0,61,61,7,,-0.006656749999820022,337.05632225,337.85204216700004,337.85204216700004,338.356187459,338.83552570899974,339.8303955839997,339.8303955839997,339.8303955839997,339.8303955839997,f,2.1439409580002575,341.98632158400005,342.476684709,,,,,,,,,YHH4638574,2023-03-12_21h57.22.756,rdk-discrimination,2023.1.0,None,
none,left,,,,,0,62,62,57,,-0.006271124999784661,342.9811518339998,343.77878116700003,343.77878116700003,344.28149995900003,344.7609815840001,345.9562435419998,345.9562435419998,345.9562435419998,345.9562435419998,f,2.394109207999918,348.36184612499983,348.8546489999999,,,,,,,,,YHH4638574,2023-03-12_21h57.22.756,rdk-discrimination,2023.1.0,None,
left,left,,,,,0,63,63,15,,-0.0036945830001968716,349.35480983399975,349.44473179199986,349.44473179199986,349.94021866699995,350.4336559589997,351.4234916669998,351.4234916669998,351.4234916669998,351.4234916669998,f,1.706947417000265,353.13911741699985,353.6339335419998,,,,,,,,,YHH4638574,2023-03-12_21h57.22.756,rdk-discrimination,2023.1.0,None,
none,left,,,,,0,64,64,58,,-0.005647125000450615,354.133085125,354.2266688750001,354.2266688750001,354.7302831249999,355.2139502499999,356.21088662500006,356.21088662500006,356.21088662500006,356.21088662500006,f,2.333940583000185,358.560192209,359.05321525,,,,,,,,,YHH4638574,2023-03-12_21h57.22.756,rdk-discrimination,2023.1.0,None,
none,right,,,,,0,65,65,63,,-0.007884083000135433,359.5553948749998,360.35757458399985,360.35757458399985,360.8557298749997,361.3400578339997,362.33704529199986,362.33704529199986,362.33704529199986,362.33704529199986,f,2.341180500000064,364.6981900420001,365.1863159169998,,,,,,,,,YHH4638574,2023-03-12_21h57.22.756,rdk-discrimination,2023.1.0,None,
left,left,,,,,0,66,66,0,,-0.006923749999714346,365.68992716699995,366.0340756669998,366.0340756669998,366.527640625,367.0219690839999,368.2208535,368.2208535,368.2208535,368.2208535,f,1.71092091599985,369.95133024999996,370.4474593340001,,,,,,,,,YHH4638574,2023-03-12_21h57.22.756,rdk-discrimination,2023.1.0,None,
left,right,,,,,0,67,67,35,,-0.002548415999626741,370.9424369999997,371.0356059999999,371.0356059999999,371.53980116699995,372.0229724169999,373.0205437499999,373.0205437499999,373.0205437499999,373.0205437499999,f,2.156359873999918,375.18875183399996,375.68829174999973,,,,,,,,,YHH4638574,2023-03-12_21h57.22.756,rdk-discrimination,2023.1.0,None,
left,left,,,,,0,68,68,11,,-2.5583000024198554e-05,376.18445170899986,376.97994554199977,376.97994554199977,377.4775331249998,377.96155437499965,378.95272054199995,378.95272054199995,378.95272054199995,378.95272054199995,f,1.488987540999915,380.457389959,380.95440362499994,,,,,,,,,YHH4638574,2023-03-12_21h57.22.756,rdk-discrimination,2023.1.0,None,
none,left,,,,,0,69,69,54,,-0.001664040999912686,381.4512801669998,382.25095516700003,382.25095516700003,382.7445355,383.2337051249997,384.2319240419997,384.2319240419997,384.2319240419997,384.2319240419997,f,1.7919429990001845,386.0358974169999,386.52776029200004,,,,,,,,,YHH4638574,2023-03-12_21h57.22.756,rdk-discrimination,2023.1.0,None,
none,right,,,,,0,70,70,79,,-0.004295250000268425,387.02925712499973,387.1208328339999,387.1208328339999,387.6152901249998,388.11040220899986,389.30741158399996,389.30741158399996,389.30741158399996,389.30741158399996,f,1.8090863750003336,391.1291178749998,391.6261845419999,,,,,,,,,YHH4638574,2023-03-12_21h57.22.756,rdk-discrimination,2023.1.0,None,
none,left,,,,,0,71,71,53,,-0.0022783750000598957,392.12243954199994,392.2163626249999,392.2163626249999,392.7193332920001,393.210929459,394.40803320899977,394.40803320899977,394.40803320899977,394.40803320899977,f,1.4733788329999697,395.89838195899983,396.391842,,,,,,,,,YHH4638574,2023-03-12_21h57.22.756,rdk-discrimination,2023.1.0,None,
none,right,,,,,0,72,72,68,,-0.004257874999893829,396.8925817919999,397.688135334,397.688135334,398.18586695899967,398.6695104999999,399.6625013749999,399.6625013749999,399.6625013749999,399.6625013749999,f,1.287625707999723,400.96738266700004,401.4604777499999,,,,,,,,,YHH4638574,2023-03-12_21h57.22.756,rdk-discrimination,2023.1.0,None,
left,left,,,,,0,73,73,8,,-0.0013642909998452524,401.960612417,402.3065248749999,402.3065248749999,402.8021333749998,403.2913348339998,404.2869398339999,404.2869398339999,404.2869398339999,404.2869398339999,f,1.5578615000003992,405.8643402499997,,,,,,,,,,YHH4638574,2023-03-12_21h57.22.756,rdk-discrimination,2023.1.0,None,
left,left,,,,,0,74,74,12,,0.0027484170000207087,406.86398545899965,407.6640681250001,407.6640681250001,408.1613713749998,408.6497570839997,409.65154512499976,409.65154512499976,409.65154512499976,409.65154512499976,f,0.7434745000000476,410.40701599999966,410.897775209,,,,,,,,,YHH4638574,2023-03-12_21h57.22.756,rdk-discrimination,2023.1.0,None,
none,right,,,,,0,75,75,70,,-0.008034250000036991,411.401787584,411.7518166249997,411.7518166249997,412.2449838749999,412.736970209,413.7315906670001,413.7315906670001,413.7315906670001,413.7315906670001,j,1.2668538739999349,415.0124946669998,415.50288950000004,,,,,,,,,YHH4638574,2023-03-12_21h57.22.756,rdk-discrimination,2023.1.0,None,
right,right,,,,,0,76,76,29,,-0.006588125000234868,416.00166316700006,416.09250462499995,416.09250462499995,416.60267087500006,417.07818287500004,418.0736382089999,418.0736382089999,418.0736382089999,418.0736382089999,j,1.0137473740001042,419.093509625,419.58587958399994,,,,,,,,,YHH4638574,2023-03-12_21h57.22.756,rdk-discrimination,2023.1.0,None,
none,left,,,,,0,77,77,55,,-0.00833550000015748,420.08904108399975,420.4343241669999,420.4343241669999,420.92835620899996,421.42488216699985,422.6222333749997,422.6222333749997,422.6222333749997,422.6222333749997,f,2.2015785829999004,424.83609099999967,425.3313445419999,,,,,,,,,YHH4638574,2023-03-12_21h57.22.756,rdk-discrimination,2023.1.0,None,
none,left,,,,,0,78,78,46,,-0.007734958000128245,425.8260445000001,425.91831379199994,425.91831379199994,426.421756792,426.90252062499985,427.8946370419999,427.8946370419999,427.8946370419999,427.8946370419999,f,1.821244624999963,429.72818745899986,430.22155945899976,,,,,,,,,YHH4638574,2023-03-12_21h57.22.756,rdk-discrimination,2023.1.0,None,
none,right,,,,,0,79,79,67,,-0.007696000000123604,430.718724417,430.81314812499977,430.81314812499977,431.31216708400007,431.80570337499967,432.800520709,432.800520709,432.800520709,432.800520709,j,1.2196865830001116,434.04120520900005,434.53980141700004,,,,,,,,,YHH4638574,2023-03-12_21h57.22.756,rdk-discrimination,2023.1.0,None,
left,left,,,,,1,0,80,4,,-0.0024469160002809076,435.0345189999998,435.83642062499985,435.83642062499985,436.33488741699966,436.81853524999997,437.817983334,437.817983334,437.817983334,437.817983334,f,0.20602224999993268,438.0406952919998,438.53330712499974,,,,,,,,,YHH4638574,2023-03-12_21h57.22.756,rdk-discrimination,2023.1.0,None,
left,left,,,,,1,1,81,14,,-0.00766079200002423,439.03118216699977,439.83249958399983,439.83249958399983,440.3291842089998,440.8144361669997,442.00830208399975,442.00830208399975,442.00830208399975,442.00830208399975,f,1.0142556669998157,443.03164375000006,443.52737391699975,,,,,,,,,YHH4638574,2023-03-12_21h57.22.756,rdk-discrimination,2023.1.0,None,
none,right,,,,,1,2,82,77,,-0.00811375000012049,444.02201912500004,444.11458054199966,444.11458054199966,444.613192542,445.0989798749997,446.2915523749998,446.2915523749998,446.2915523749998,446.2915523749998,j,1.5045184999999037,447.80801866699994,448.30262645899984,,,,,,,,,YHH4638574,2023-03-12_21h57.22.756,rdk-discrimination,2023.1.0,None,
none,left,,,,,1,3,83,52,,-0.007376125000064349,448.7973338339998,448.8889617919999,448.8889617919999,449.38885087499966,449.8764729999998,451.0736986249999,451.0736986249999,451.0736986249999,451.0736986249999,f,1.3011916239997845,452.3831530839998,452.874366,,,,,,,,,YHH4638574,2023-03-12_21h57.22.756,rdk-discrimination,2023.1.0,None,
none,left,,,,,1,4,84,44,,-0.010911832999681792,453.378174209,453.4693794589998,453.4693794589998,453.9711177089998,454.4545294169998,455.650064292,455.650064292,455.650064292,455.650064292,f,1.7673440409998875,457.43399829200007,457.92274508399987,,,,,,,,,YHH4638574,2023-03-12_21h57.22.756,rdk-discrimination,2023.1.0,None,
left,right,,,,,1,5,85,33,,-0.007600624999668071,458.4284313339999,458.5238039589999,458.5238039589999,459.03096137500006,459.50341204200004,460.696771292,460.696771292,460.696771292,460.696771292,j,1.4352244579999933,462.1455196249999,462.6359380839999,,,,,,,,,YHH4638574,2023-03-12_21h57.22.756,rdk-discrimination,2023.1.0,None,
none,right,,,,,1,6,86,70,,-0.0067649590000655735,463.1398066669999,463.942251209,463.942251209,464.44295349999993,464.9248615419997,466.123636625,466.123636625,466.123636625,466.123636625,j,2.2954239159998906,468.42772383400006,468.9202501249997,,,,,,,,,YHH4638574,2023-03-12_21h57.22.756,rdk-discrimination,2023.1.0,None,
left,left,,,,,1,7,87,9,,-0.0041984160002357385,469.42113541699973,469.52299545899996,469.52299545899996,470.0163615419997,470.5113366669998,471.70814174999987,471.70814174999987,471.70814174999987,471.70814174999987,f,1.982571999999891,473.69835624999996,474.1927430420001,,,,,,,,,YHH4638574,2023-03-12_21h57.22.756,rdk-discrimination,2023.1.0,None,
right,left,,,,,1,8,88,38,,-0.009840875000008964,474.6895022089998,475.48965983399967,475.48965983399967,475.987605667,476.47920108399967,477.474778709,477.474778709,477.474778709,477.474778709,f,1.3945832499998687,478.8820583339998,479.37351012499994,,,,,,,,,YHH4638574,2023-03-12_21h57.22.756,rdk-discrimination,2023.1.0,None,
none,left,,,,,1,9,89,46,,-0.004981084000064584,479.8743799589997,479.9691183340001,479.9691183340001,480.4753922919999,480.9568802499998,482.15365645899965,482.15365645899965,482.15365645899965,482.15365645899965,f,2.335935290999714,484.50333762499986,484.9947153339999,,,,,,,,,YHH4638574,2023-03-12_21h57.22.756,rdk-discrimination,2023.1.0,None,
right,right,,,,,1,10,90,24,,-0.004362374999800522,485.4953827919999,486.2949530000001,486.2949530000001,486.7918867499998,487.27906837499995,488.4752682499998,488.4752682499998,488.4752682499998,488.4752682499998,j,1.2381809580001573,489.7245278749997,490.2157488339999,,,,,,,,,YHH4638574,2023-03-12_21h57.22.756,rdk-discrimination,2023.1.0,None,
left,left,,,,,1,11,91,2,,-0.005542290999983379,490.71637624999994,490.8177290419999,490.8177290419999,491.31653937500005,491.80442320899965,492.79488616699973,492.79488616699973,492.79488616699973,492.79488616699973,f,1.0266157910000402,493.84044975000006,494.33987416699983,,,,,,,,,YHH4638574,2023-03-12_21h57.22.756,rdk-discrimination,2023.1.0,None,
none,right,,,,,1,12,92,68,,-0.003273208999871713,494.83472945899985,495.6329296250001,495.6329296250001,496.1315559169998,496.6216802499998,497.6129257919997,497.6129257919997,497.6129257919997,497.6129257919997,j,1.3668805420002172,498.985578625,499.4808843339997,,,,,,,,,YHH4638574,2023-03-12_21h57.22.756,rdk-discrimination,2023.1.0,None,
left,left,,,,,1,13,93,5,,-0.011189416999968671,499.97627091699997,500.07675333399993,500.07675333399993,500.5737398749998,501.06002229199976,502.0538784999999,502.0538784999999,502.0538784999999,502.0538784999999,f,1.6215285419998509,503.6869016669998,504.1806710840001,,,,,,,,,YHH4638574,2023-03-12_21h57.22.756,rdk-discrimination,2023.1.0,None,
none,left,,,,,1,14,94,51,,-0.008851832999880571,504.67628937499967,505.47241804199984,505.47241804199984,505.97100420900006,506.4541157919998,507.6461085420001,507.6461085420001,507.6461085420001,507.6461085420001,f,1.2840492489999633,508.9453751249998,509.4371714589997,,,,,,,,,YHH4638574,2023-03-12_21h57.22.756,rdk-discrimination,2023.1.0,None,
none,left,,,,,1,15,95,49,,-0.007147208999867871,509.93563083399977,510.0290464589998,510.0290464589998,510.5296052499998,511.0142921669999,512.2062625839999,512.2062625839999,512.2062625839999,512.2062625839999,f,1.527511291999872,513.7442328749999,514.2355863339999,,,,,,,,,YHH4638574,2023-03-12_21h57.22.756,rdk-discrimination,2023.1.0,None,
left,right,,,,,1,16,96,34,,-0.0054653329998473055,514.7352782089997,514.8303194589998,514.8303194589998,515.3302268339999,515.8125212499999,516.805361709,516.805361709,516.805361709,516.805361709,j,1.0786999580000156,517.8950500420001,518.3860603339999,,,,,,,,,YHH4638574,2023-03-12_21h57.22.756,rdk-discrimination,2023.1.0,None,
none,left,,,,,1,17,97,54,,-0.007244249999985186,518.885157875,519.2309371669999,519.2309371669999,519.7312659589998,520.2235022919999,521.4154548749998,521.4154548749998,521.4154548749998,521.4154548749998,f,0.8255416669999249,522.2536167919998,522.7449812499999,,,,,,,,,YHH4638574,2023-03-12_21h57.22.756,rdk-discrimination,2023.1.0,None,
none,left,,,,,1,18,98,48,,-0.006841375000021799,523.2434685419998,523.5911854999999,523.5911854999999,524.0904702089997,524.5745164999998,525.5709474589999,525.5709474589999,525.5709474589999,525.5709474589999,f,1.5045425409998643,527.0870584589998,527.578146625,,,,,,,,,YHH4638574,2023-03-12_21h57.22.756,rdk-discrimination,2023.1.0,None,
none,left,,,,,1,19,99,42,,-0.005636500000036904,528.0821813339999,528.1807490419997,528.1807490419997,528.6834274590001,529.1724247919997,530.3664652919997,530.3664652919997,530.3664652919997,530.3664652919997,f,1.5126284170000872,531.891622959,532.3819363339999,,,,,,,,,YHH4638574,2023-03-12_21h57.22.756,rdk-discrimination,2023.1.0,None,
left,left,,,,,1,20,100,10,,-0.005804166999951121,532.8827662089998,533.683497167,533.683497167,534.1820062090001,534.6627347499998,535.6542666249998,535.6542666249998,535.6542666249998,535.6542666249998,j,1.5545664579999539,537.2214422499997,537.7114837499998,,,,,,,,,YHH4638574,2023-03-12_21h57.22.756,rdk-discrimination,2023.1.0,None,
none,right,,,,,1,21,101,69,,-0.004807917000107409,538.2129843339999,538.3067531249999,538.3067531249999,538.8127370419998,539.291836375,540.4842116669997,540.4842116669997,540.4842116669997,540.4842116669997,j,1.7437667079998391,542.2452912499998,542.7436130419997,,,,,,,,,YHH4638574,2023-03-12_21h57.22.756,rdk-discrimination,2023.1.0,None,
right,right,,,,,1,22,102,21,,-0.0010250830000586575,543.2400642499997,543.3350544589998,543.3350544589998,543.8378687919999,544.3268846249998,545.326255125,545.326255125,545.326255125,545.326255125,j,1.2928092499996637,546.6315589589999,547.1244079170001,,,,,,,,,YHH4638574,2023-03-12_21h57.22.756,rdk-discrimination,2023.1.0,None,
right,left,,,,,1,23,103,39,,-0.004051290999996127,547.6262190839998,547.9718322919998,547.9718322919998,548.4732344999998,548.9619498749998,550.1566334589997,550.1566334589997,550.1566334589997,550.1566334589997,j,1.2649279580000439,551.4404912499999,,,,,,,,,,YHH4638574,2023-03-12_21h57.22.756,rdk-discrimination,2023.1.0,None,
right,right,,,,,1,24,104,22,,0.0020670839999183954,552.4374290000001,552.7861279169997,552.7861279169997,553.2809673339998,553.7740927089999,554.965594625,554.965594625,554.965594625,554.965594625,j,1.7075409580002088,556.6853027090001,557.1742274169997,,,,,,,,,YHH4638574,2023-03-12_21h57.22.756,rdk-discrimination,2023.1.0,None,
left,left,,,,,1,25,105,8,,-0.006657333000021026,557.6809349169998,557.7776157919998,557.7776157919998,558.2743075839999,558.764120625,559.9578634999998,559.9578634999998,559.9578634999998,559.9578634999998,f,1.7899547080000957,561.7586590420001,562.2488384999997,,,,,,,,,YHH4638574,2023-03-12_21h57.22.756,rdk-discrimination,2023.1.0,None,
none,right,,,,,1,26,106,65,,-0.006508665999717778,562.7548206249999,562.8487465419998,562.8487465419998,563.3568513749997,563.8382347920001,564.8353253749997,564.8353253749997,564.8353253749997,564.8353253749997,j,0.9540227080001387,565.8000753749998,566.290614084,,,,,,,,,YHH4638574,2023-03-12_21h57.22.756,rdk-discrimination,2023.1.0,None,
none,right,,,,,1,27,107,62,,-0.007149999999910506,566.7973776670001,567.5942199169999,567.5942199169999,568.0926898749999,568.589661,569.7831002089997,569.7831002089997,569.7831002089997,569.7831002089997,f,1.122500874999787,570.9167710839997,571.4115979999997,,,,,,,,,YHH4638574,2023-03-12_21h57.22.756,rdk-discrimination,2023.1.0,None,
none,right,,,,,1,28,108,72,,-0.007226290999824414,571.9070377089997,572.0013719589997,572.0013719589997,572.5049184169998,572.9891815000001,574.1862794999997,574.1862794999997,574.1862794999997,574.1862794999997,j,0.9938431670002501,575.192339834,575.682492375,,,,,,,,,YHH4638574,2023-03-12_21h57.22.756,rdk-discrimination,2023.1.0,None,
none,right,,,,,1,29,109,61,,-0.005250582999906328,576.1833867089999,576.5335902920001,576.5335902920001,577.0312079999999,577.5177748749998,578.5139455839999,578.5139455839999,578.5139455839999,578.5139455839999,j,0.21158233300002394,578.7364371250001,579.2287379169998,,,,,,,,,YHH4638574,2023-03-12_21h57.22.756,rdk-discrimination,2023.1.0,None,
right,right,,,,,1,30,110,27,,-0.004787084000327013,579.7297987090001,580.5265495419999,580.5265495419999,581.0294832499999,581.5154237500001,582.508223625,582.508223625,582.508223625,582.508223625,j,0.39127966699970784,582.9149788750001,583.4073315420001,,,,,,,,,YHH4638574,2023-03-12_21h57.22.756,rdk-discrimination,2023.1.0,None,
none,right,,,,,1,31,111,73,,-0.0063708749999022984,583.914049042,584.709986584,584.709986584,585.2094435839999,585.6921877919999,586.6920153749998,586.6920153749998,586.6920153749998,586.6920153749998,j,0.22174712500009264,586.9248673749998,587.4156721249997,,,,,,,,,YHH4638574,2023-03-12_21h57.22.756,rdk-discrimination,2023.1.0,None,
none,right,,,,,1,32,112,78,,-0.006828624999798194,587.921082375,588.269203625,588.269203625,588.768857042,589.258505667,590.4509694999997,590.4509694999997,590.4509694999997,590.4509694999997,j,0.13526349999983722,590.5986160839998,591.093151,,,,,,,,,YHH4638574,2023-03-12_21h57.22.756,rdk-discrimination,2023.1.0,None,
right,right,,,,,1,33,113,31,,-0.006902791999891633,591.5892718340001,591.9395492089998,591.9395492089998,592.4384923749999,592.9200774589999,594.1110317499997,594.1110317499997,594.1110317499997,594.1110317499997,j,1.6355937499997708,595.7573333339997,596.2510647919999,,,,,,,,,YHH4638574,2023-03-12_21h57.22.756,rdk-discrimination,2023.1.0,None,
none,right,,,,,1,34,114,75,,-0.00929908299985982,596.748689084,597.0928292089998,597.0928292089998,597.5923223750001,598.0744931669997,599.267767709,599.267767709,599.267767709,599.267767709,j,1.1123907080000208,600.3917732499999,600.8862047919997,,,,,,,,,YHH4638574,2023-03-12_21h57.22.756,rdk-discrimination,2023.1.0,None,
none,left,,,,,1,35,115,47,,-0.008399249999911262,601.3820444170001,602.1761880839999,602.1761880839999,602.6740597089997,603.1718661669997,604.3677507919997,604.3677507919997,604.3677507919997,604.3677507919997,f,1.756079833000058,606.1334562919997,606.6237741669997,,,,,,,,,YHH4638574,2023-03-12_21h57.22.756,rdk-discrimination,2023.1.0,None,
left,left,,,,,1,36,116,0,,-0.007679875000121683,607.1274937089997,607.9299966250001,607.9299966250001,608.4241726669998,608.9081929999998,609.9003937919997,609.9003937919997,609.9003937919997,609.9003937919997,j,1.4950020410001343,611.408666584,,,,,,,,,,YHH4638574,2023-03-12_21h57.22.756,rdk-discrimination,2023.1.0,None,
left,left,,,,,1,37,117,12,,0.00235870899996371,612.407641709,612.7486307499998,612.7486307499998,613.245619417,613.7328394169999,614.9287708339998,614.9287708339998,614.9287708339998,614.9287708339998,j,0.8824722079998537,615.8207565419998,616.3118102499998,,,,,,,,,YHH4638574,2023-03-12_21h57.22.756,rdk-discrimination,2023.1.0,None,
none,left,,,,,1,38,118,50,,-0.007024708000244573,616.8152234999998,617.6156356249999,617.6156356249999,618.1176055000001,618.6024767499998,619.5959889999999,619.5959889999999,619.5959889999999,619.5959889999999,f,1.6041684169999826,621.2156167089997,,,,,,,,,,YHH4638574,2023-03-12_21h57.22.756,rdk-discrimination,2023.1.0,None,
none,left,,,,,1,39,119,45,,0.0018197499998677813,622.2117101670001,622.556948209,622.556948209,623.0490744589997,623.5501582500001,624.5414136249997,624.5414136249997,624.5414136249997,624.5414136249997,None,,629.5261271669997,630.0264837089999,,,,,627.0414959999998,627.0414959999998,627.0414959999998,,YHH4638574,2023-03-12_21h57.22.756,rdk-discrimination,2023.1.0,None,
none,left,,,,,1,40,120,43,,-0.01567795799974192,630.5267732499997,630.6169131669999,630.6169131669999,631.121072209,631.6090827089997,632.6020826250001,632.6020826250001,632.6020826250001,632.6020826250001,f,0.9143039159998807,633.5294994169999,,,,,,,,,,YHH4638574,2023-03-12_21h57.22.756,rdk-discrimination,2023.1.0,None,
right,right,,,,,1,41,121,17,,0.0021574580000560672,634.5267721249998,634.8703169589999,634.8703169589999,635.4150473750001,635.8649732919998,637.0611795,637.0611795,637.0611795,637.0611795,j,1.2339697490001527,638.3041979999998,638.804398625,,,,,,,,,YHH4638574,2023-03-12_21h57.22.756,rdk-discrimination,2023.1.0,None,
none,left,,,,,1,42,122,53,,0.0015511669998886646,639.3060722499999,639.401786375,639.401786375,639.9028338749999,640.3898382919997,641.3827029169997,641.3827029169997,641.3827029169997,641.3827029169997,f,1.1350582079999185,642.5247062089998,643.023643167,,,,,,,,,YHH4638574,2023-03-12_21h57.22.756,rdk-discrimination,2023.1.0,None,
none,right,,,,,1,43,123,67,,-0.0015891670000200975,643.5238251669998,644.3226943750001,644.3226943750001,644.8223057089999,645.3111274590001,646.5036344589998,646.5036344589998,646.5036344589998,646.5036344589998,j,0.4165534160001698,646.9291297919999,647.424048417,,,,,,,,,YHH4638574,2023-03-12_21h57.22.756,rdk-discrimination,2023.1.0,None,
left,left,,,,,1,44,124,15,,-0.008085791999747016,647.9184168749998,648.011869084,648.011869084,648.5151855839999,649.0009439169999,650.1964272089999,650.1964272089999,650.1964272089999,650.1964272089999,f,0.8233342489997995,651.0286807499997,651.5226378749999,,,,,,,,,YHH4638574,2023-03-12_21h57.22.756,rdk-discrimination,2023.1.0,None,
left,right,,,,,1,45,125,32,,-0.00804591700034507,652.0183245419998,652.8202015419997,652.8202015419997,653.3176721669997,653.8114740000001,654.80427775,654.80427775,654.80427775,654.80427775,j,0.786347749000015,655.6053579589998,656.0946599999997,,,,,,,,,YHH4638574,2023-03-12_21h57.22.756,rdk-discrimination,2023.1.0,None,
none,left,,,,,1,46,126,41,,-0.009400541000104568,656.5977191669999,656.7001057919997,656.7001057919997,657.198620875,657.6864447499997,658.6801632500001,658.6801632500001,658.6801632500001,658.6801632500001,f,0.5692125410000699,659.261806167,659.7537926249997,,,,,,,,,YHH4638574,2023-03-12_21h57.22.756,rdk-discrimination,2023.1.0,None,
left,right,,,,,1,47,127,35,,-0.0035156250000909495,660.255183792,661.058161209,661.058161209,661.5487647089999,662.0361883339997,663.033298625,663.033298625,663.033298625,663.033298625,f,0.19264391700016859,663.242118917,663.732242042,,,,,,,,,YHH4638574,2023-03-12_21h57.22.756,rdk-discrimination,2023.1.0,None,
none,left,,,,,1,48,128,59,,-0.005858791999798996,664.232655459,664.3328798339999,664.3328798339999,664.8341989999999,665.3232431249999,666.5208171669997,666.5208171669997,666.5208171669997,666.5208171669997,f,0.7637262499997632,667.2952856249999,667.789247875,,,,,,,,,YHH4638574,2023-03-12_21h57.22.756,rdk-discrimination,2023.1.0,None,
right,left,,,,,1,49,129,37,,-0.007559041000149591,668.2850270839999,668.3779626669998,668.3779626669998,668.88433725,669.3632257499999,670.5581242919998,670.5581242919998,670.5581242919998,670.5581242919998,j,0.226309707999917,670.7960962090001,671.2907290839998,,,,,,,,,YHH4638574,2023-03-12_21h57.22.756,rdk-discrimination,2023.1.0,None,
right,right,,,,,1,50,130,16,,-0.006888791999699606,671.785485459,672.5810073339999,672.5810073339999,673.0804492089997,673.5774067499997,674.7731105839998,674.7731105839998,674.7731105839998,674.7731105839998,j,2.0266012500001125,676.8138417499999,677.304181,,,,,,,,,YHH4638574,2023-03-12_21h57.22.756,rdk-discrimination,2023.1.0,None,
none,right,,,,,1,51,131,60,,-0.004976833999990049,677.8038044999998,678.6051482089997,678.6051482089997,679.1047536669998,679.597051709,680.5919175839999,680.5919175839999,680.5919175839999,680.5919175839999,j,1.4421594160003224,682.0484987089999,682.543746417,,,,,,,,,YHH4638574,2023-03-12_21h57.22.756,rdk-discrimination,2023.1.0,None,
none,right,,,,,1,52,132,71,,-0.007079915999838704,683.039569,683.3897942919998,683.3897942919998,683.8852822499998,684.381122834,685.374692375,685.374692375,685.374692375,685.374692375,f,1.2223438330001954,686.6122797499997,687.107617875,,,,,,,,,YHH4638574,2023-03-12_21h57.22.756,rdk-discrimination,2023.1.0,None,
none,right,,,,,1,53,133,63,,-2.0124999991821824e-05,687.6077304169999,688.4058319999999,688.4058319999999,688.905828167,689.3937098749998,690.388498584,690.388498584,690.388498584,690.388498584,j,1.0371199579999484,691.437074292,691.9311404999999,,,,,,,,,YHH4638574,2023-03-12_21h57.22.756,rdk-discrimination,2023.1.0,None,
right,right,,,,,1,54,134,26,,-0.005529915999886725,692.4266444999998,693.2234585419997,693.2234585419997,693.7250627499998,694.2110016669999,695.2035074589999,695.2035074589999,695.2035074589999,695.2035074589999,j,1.0745177910002894,696.2883510839997,696.778376834,,,,,,,,,YHH4638574,2023-03-12_21h57.22.756,rdk-discrimination,2023.1.0,None,
left,left,,,,,1,55,135,7,,-0.007622667000305228,697.2816700839999,697.3788490839997,697.3788490839997,697.881541792,698.367598417,699.362533,699.362533,699.362533,699.362533,f,0.9868475409998609,700.361784834,700.8531281669998,,,,,,,,,YHH4638574,2023-03-12_21h57.22.756,rdk-discrimination,2023.1.0,None,
right,right,,,,,1,56,136,30,,-0.0074035409998032264,701.3562306670001,701.7001826669998,701.7001826669998,702.2008907919999,702.6832184999998,703.6799315839999,703.6799315839999,703.6799315839999,703.6799315839999,j,0.9379883749998044,704.6296502499999,705.1284775839999,,,,,,,,,YHH4638574,2023-03-12_21h57.22.756,rdk-discrimination,2023.1.0,None,
right,right,,,,,1,57,137,23,,-0.0001991249996535771,705.6266959169998,705.976472625,705.976472625,706.4760580839998,706.9568909169998,707.9542572089999,707.9542572089999,707.9542572089999,707.9542572089999,j,0.8837127080000755,708.843555084,709.3368501669997,,,,,,,,,YHH4638574,2023-03-12_21h57.22.756,rdk-discrimination,2023.1.0,None,
none,right,,,,,1,58,138,66,,-0.008329624999987573,709.8393048749999,709.930872375,709.930872375,710.4290919169998,710.920921417,711.9130861250001,711.9130861250001,711.9130861250001,711.9130861250001,j,1.1981296660001135,713.1220665420001,,,,,,,,,,YHH4638574,2023-03-12_21h57.22.756,rdk-discrimination,2023.1.0,None,
left,left,,,,,1,59,139,11,,0.0024171660002139106,714.1218132499998,714.4738635839999,714.4738635839999,714.9671297919999,715.4553808339997,716.4540178339998,716.4540178339998,716.4540178339998,716.4540178339998,f,1.6799297079996904,718.1512511669998,,,,,,,,,,YHH4638574,2023-03-12_21h57.22.756,rdk-discrimination,2023.1.0,None,
none,left,,,,,1,60,140,56,,0.0029815829998369736,719.1510221670001,719.2498896249999,719.2498896249999,719.7503557499999,720.2362762499997,721.4293633339998,721.4293633339998,721.4293633339998,721.4293633339998,j,1.261624123999809,722.710476709,723.2010196669999,,,,,,,,,YHH4638574,2023-03-12_21h57.22.756,rdk-discrimination,2023.1.0,None,
left,left,,,,,1,61,141,3,,-0.002373207999880833,723.702181917,724.49699925,724.49699925,724.995082125,725.4788242089999,726.470652042,726.470652042,726.470652042,726.470652042,f,1.2066090830003304,727.6909379999997,,,,,,,,,,YHH4638574,2023-03-12_21h57.22.756,rdk-discrimination,2023.1.0,None,
none,left,,,,,1,62,142,58,,0.002663374999883672,728.6892550839998,728.7810220419997,728.7810220419997,729.2740360839998,729.771313834,730.7677008339997,730.7677008339997,730.7677008339997,730.7677008339997,f,1.4819779579997885,732.2670655839997,,,,,,,,,,YHH4638574,2023-03-12_21h57.22.756,rdk-discrimination,2023.1.0,None,
none,left,,,,,1,63,143,55,,0.005144166999798472,733.269714084,733.3626037499998,733.3626037499998,733.867403834,734.354966375,735.3499569999999,735.3499569999999,735.3499569999999,735.3499569999999,f,1.5599483329997383,736.9203232919999,737.4155139589998,,,,,,,,,YHH4638574,2023-03-12_21h57.22.756,rdk-discrimination,2023.1.0,None,
none,right,,,,,1,64,144,74,,-0.00924079200012784,737.9101807090001,738.2575192919999,738.2575192919999,738.7531288749997,739.2370315839999,740.2308202499999,740.2308202499999,740.2308202499999,740.2308202499999,f,0.846088291000342,741.0900294999997,741.5794190419997,,,,,,,,,YHH4638574,2023-03-12_21h57.22.756,rdk-discrimination,2023.1.0,None,
right,right,,,,,1,65,145,25,,-0.00513066700023046,742.08021925,742.1749077499999,742.1749077499999,742.6752570839999,743.1628760839999,744.3586130839999,744.3586130839999,744.3586130839999,744.3586130839999,j,0.711847083000066,745.0840806669999,,,,,,,,,,YHH4638574,2023-03-12_21h57.22.756,rdk-discrimination,2023.1.0,None,
left,left,,,,,1,66,146,13,,0.004618292000031943,746.0847382090001,746.4319099999998,746.4319099999998,746.934327334,747.4247768339997,748.4217048749997,748.4217048749997,748.4217048749997,748.4217048749997,f,0.6347724160000325,749.0720242499997,749.5714802919997,,,,,,,,,YHH4638574,2023-03-12_21h57.22.756,rdk-discrimination,2023.1.0,None,
right,right,,,,,1,67,147,28,,-0.0019400830001359282,750.0692489589997,750.4184785839998,750.4184785839998,750.9173634999997,751.4071174169999,752.5982478339997,752.5982478339997,752.5982478339997,752.5982478339997,j,0.46798220799973933,753.0792147919997,753.571375,,,,,,,,,YHH4638574,2023-03-12_21h57.22.756,rdk-discrimination,2023.1.0,None,
right,right,,,,,1,68,148,29,,-0.00854783300019335,754.0691297919998,754.1639787499998,754.1639787499998,754.665874542,755.1454426669998,756.3380444169998,756.3380444169998,756.3380444169998,756.3380444169998,j,0.4588611670001228,756.8134115839998,757.3039469169998,,,,,,,,,YHH4638574,2023-03-12_21h57.22.756,rdk-discrimination,2023.1.0,None,
left,left,,,,,1,69,149,1,,-0.004922957999951905,757.805677459,758.6042997919999,758.6042997919999,759.0998224999998,759.5884364169997,760.5846725419997,760.5846725419997,760.5846725419997,760.5846725419997,f,0.4554429579998214,761.0497137089997,761.5410919169999,,,,,,,,,YHH4638574,2023-03-12_21h57.22.756,rdk-discrimination,2023.1.0,None,
none,right,,,,,1,70,150,79,,-0.005360707999898295,762.0424779589998,762.3916354170001,762.3916354170001,762.888807542,763.3746342499999,764.3744888339997,764.3744888339997,764.3744888339997,764.3744888339997,j,0.9009689989998151,765.2887269590001,765.7788032499998,,,,,,,,,YHH4638574,2023-03-12_21h57.22.756,rdk-discrimination,2023.1.0,None,
right,right,,,,,1,71,151,20,,-0.006116000000019994,766.2782381669999,766.3739209169999,766.3739209169999,766.8772172499998,767.3631393749997,768.3582633749998,768.3582633749998,768.3582633749998,768.3582633749998,j,0.35888416600027995,768.7325632090001,769.2244745419998,,,,,,,,,YHH4638574,2023-03-12_21h57.22.756,rdk-discrimination,2023.1.0,None,
right,right,,,,,1,72,152,18,,-0.008086999999704858,769.727151,770.0815014999998,770.0815014999998,770.5779111669999,771.0690141669998,772.0594100419999,772.0594100419999,772.0594100419999,772.0594100419999,j,0.9066608750003979,772.9764447919997,773.4651494999998,,,,,,,,,YHH4638574,2023-03-12_21h57.22.756,rdk-discrimination,2023.1.0,None,
none,right,,,,,1,73,153,64,,-0.00735954199990374,773.9710634589997,774.7660148749997,774.7660148749997,775.2656284999998,775.7491436669998,776.7415732499999,776.7415732499999,776.7415732499999,776.7415732499999,f,0.7240827910000007,777.4774309999998,777.972413292,,,,,,,,,YHH4638574,2023-03-12_21h57.22.756,rdk-discrimination,2023.1.0,None,
right,right,,,,,1,74,154,19,,-0.004001707999577775,778.4691754169999,778.5636236249998,778.5636236249998,779.0620436669997,779.550307125,780.545306209,780.545306209,780.545306209,780.545306209,j,0.8094912920000752,781.3627885840001,781.8552640419998,,,,,,,,,YHH4638574,2023-03-12_21h57.22.756,rdk-discrimination,2023.1.0,None,
right,left,,,,,1,75,155,36,,-0.005411499999809166,782.3567083339999,782.4525643749998,782.4525643749998,782.950889875,783.436542334,784.6282966670001,784.6282966670001,784.6282966670001,784.6282966670001,f,0.947448040999916,785.5901316669997,786.083263209,,,,,,,,,YHH4638574,2023-03-12_21h57.22.756,rdk-discrimination,2023.1.0,None,
left,left,,,,,1,76,156,6,,-0.007852582999930746,786.583162459,786.9277756249999,786.9277756249999,787.4271241669999,787.9108959589998,788.911803,788.911803,788.911803,788.911803,f,0.8778466250000747,789.8008307919999,790.2998749169997,,,,,,,,,YHH4638574,2023-03-12_21h57.22.756,rdk-discrimination,2023.1.0,None,
none,left,,,,,1,77,157,40,,-0.0004714579999927082,790.8012753339999,791.6027799589997,791.6027799589997,792.100602,792.5906932499997,793.5838572499997,793.5838572499997,793.5838572499997,793.5838572499997,j,0.7455676249996941,794.3417025419999,794.8329589589998,,,,,,,,,YHH4638574,2023-03-12_21h57.22.756,rdk-discrimination,2023.1.0,None,
none,right,,,,,1,78,158,76,,-0.00643099999979313,795.3342259589999,795.4286877089999,795.4286877089999,795.9265125839997,796.4160112919999,797.6088749589999,797.6088749589999,797.6088749589999,797.6088749589999,j,0.8957389160000275,798.5176552089997,,,,,,,,,,YHH4638574,2023-03-12_21h57.22.756,rdk-discrimination,2023.1.0,None,
none,left,,,,,1,79,159,57,,0.003511958000217419,799.518052417,799.614135709,799.614135709,800.1129957089997,800.5960445840001,801.788734834,801.788734834,801.788734834,801.788734834,f,0.822379582999929,802.6216454589999,803.1126211249998,,,,,,,,,YHH4638574,2023-03-12_21h57.22.756,rdk-discrimination,2023.1.0,None,
,,,,,,,,,,,,,,,,,,,,,,,,,,,,,,,,803.1126211249998,,,,,,
